Folder: Conodont_Crystals/Raman_conodonts

Note: README.md
# Conodont_Crystals
Using various packages in Mtex for analysing Biomineral crystals

File: How many points unique.csv
10 points;20 points;30 points;40 points;50 points;60 points;70 points;80 points;90 points;100 points;125 points;150 points;175 points;200 points;400 points;600 points;800 points;1000 points;1500 points
41.5249;16.7699;49.2916;39.993;47.4794;41.7749;19.2288;47.6796;47.1983;41.1737;41.626;38.756;48.3377;37.6256;20.9636;15.4135;41.1044;;
46.0408;38.5533;14.986;9.38303;39.8013;43.049;26.1064;21.7107;47.8238;41.6822;37.0157;13.1127;33.8893;58.886;27.6126;7.95553;27.4308;;
25.9766;47.1374;35.8452;31.6174;47.7151;31.4879;42.9306;42.8941;31.7619;38.2483;48.2129;42.9241;46.441;31.1092;15.1224;50.857;40.6371;;
;38.776;46.0885;38.4894;56.2062;28.5903;49.6598;47.0491;55.9262;44.5201;63.3951;20.1956;26.3024;40.9097;45.3299;34.922;39.5644;;
;22.0586;26.5558;40.4016;29.3265;41.59;20.4832;45.2566;39.458;23.7082;31.8264;40.1779;29.4422;48.1965;24.7483;42.399;18.541;;
;;23.9965;39.3156;45.9394;43.444;25.8883;22.4124;42.5148;42.494;32.5531;21.922;40.407;45.2498;21.0964;46.0248;24.1937;;
;;20.6835;27.8398;27.8551;27.8149;23.8588;48.3651;47.459;27.3778;44.5042;44.2651;37.4919;17.6382;17.1402;41.583;23.8374;;
;;33.1396;32.6385;28.7246;10.0608;29.9488;39.7525;14.5868;19.6478;47.2714;28.4116;41.5236;25.8326;28.2238;40.6482;37.4348;;
;;;43.9317;40.6923;29.7541;43.1199;33.9545;26.4288;42.4197;57.56;49.1168;40.6934;31.6107;25.7184;34.4522;17.1314;;
;;;21.8101;28.065;31.0399;42.3521;10.712;45.6604;43.2191;48.1809;17.2904;29.4355;28.4442;15.414;41.9351;20.9243;;
;;;;41.4473;29.4422;34.237;28.3749;43.0237;32.8059;43.2274;23.3509;27.0332;42.7204;38.9856;33.8524;38.7449;;
;;;;41.0543;46.8463;36.2001;40.19;40.7633;40.7344;35.119;42.4777;26.3395;39.7408;38.9601;41.8246;39.3407;;
;;;;38.9951;47.3894;46.9563;44.3119;45.3891;37.2744;29.4201;47.0457;41.2262;44.2677;27.5235;20.6803;44.9123;;
;;;;;46.2829;30.4373;43.0065;43.721;29.5594;28.3772;23.9632;36.0214;27.3288;8.9159;40.441;37.055;;
;;;;;39.9735;45.9554;38.5746;47.1408;92.2428;16.5969;42.6892;20.4225;41.3244;34.9574;37.4937;41.8643;;
;;;;;;47.3524;47.4983;40.2667;45.3299;49.8074;35.0296;39.1011;49.5174;40.7791;47.6481;44.6218;;
;;;;;;14.569;39.0095;26.2952;22.34;41.4854;44.2582;30.9041;40.6113;14.5459;41.6821;32.9958;;
;;;;;;43.2206;17.2569;31.2415;26.5558;44.1541;15.4114;32.7759;47.0348;38.9334;65.9216;44.6085;;
;;;;;;;43.9265;47.1245;41.0234;42.1387;24.7059;18.1028;28.8967;25.5024;24.7765;37.4077;;
;;;;;;;48.4392;41.1631;25.7184;40.7596;11.6586;31.9519;43.6312;48.8609;26.084;28.5303;;
;;;;;;;;28.1463;25.7266;38.3686;18.4802;27.7462;25.3512;14.5793;17.2275;40.2873;;
;;;;;;;;47.5211;46.3376;39.8936;43.6107;22.8192;34.151;26.7132;24.5582;17.6295;;
;;;;;;;;28.0521;36.3447;33.2982;49.6491;33.6907;13.3556;8.77062;46.8525;42.4484;;
;;;;;;;;;17.9789;49.5736;30.3925;19.28;22.1515;44.5042;46.3176;31.2249;;
;;;;;;;;;48.7338;26.8101;33.3178;38.2564;32.2857;8.18607;44.0229;21.8135;;
;;;;;;;;;;21.2422;23.6436;36.0319;26.4222;23.5664;40.0979;43.8272;;
;;;;;;;;;;28.2714;44.1898;40.0904;47.4882;57.56;26.056;36.9755;;
;;;;;;;;;;46.3132;41.6034;43.9155;54.2313;22.3944;30.6146;45.5405;;
;;;;;;;;;;48.4103;43.167;22.3865;40.2066;22.835;42.5666;39.9297;;
;;;;;;;;;;20.8133;47.0704;26.8008;27.8033;44.0847;36.7224;36.4621;;
;;;;;;;;;;46.8902;47.3788;28.4881;48.7417;15.2977;19.7794;19.4763;;
;;;;;;;;;;32.5797;26.6426;18.2013;45.448;24.7502;10.4491;7.61521;;
;;;;;;;;;;;16.1748;26.2769;26.534;45.5376;46.9333;45.0029;;
;;;;;;;;;;;46.4114;49.9555;23.1352;46.5435;49.8109;26.4014;;
;;;;;;;;;;;25.4344;48.695;26.4609;34.8019;28.7204;32.0105;;
;;;;;;;;;;;24.0867;41.2318;22.9278;29.0401;26.2433;39.1349;;
;;;;;;;;;;;62.2913;32.0094;24.7932;26.6468;12.0417;41.0592;;
;;;;;;;;;;;36.1647;49.6713;25.9008;28.4762;46.1611;39.5102;;
;;;;;;;;;;;;19.0055;31.8748;16.1426;38.6246;34.047;;
;;;;;;;;;;;;48.8532;41.6317;41.6378;31.9458;54.3273;;
;;;;;;;;;;;;35.527;47.2862;46.446;12.9536;47.1494;;
;;;;;;;;;;;;46.182;25.0689;20.6934;38.2652;18.429;;
;;;;;;;;;;;;37.1748;29.9418;46.4464;18.4914;25.5401;;
;;;;;;;;;;;;41.4352;49.9973;20.7061;12.3909;39.5603;;
;;;;;;;;;;;;;31.4964;50.0169;34.3128;35.4632;;
;;;;;;;;;;;;;26.1145;26.7563;27.5239;41.3307;;
;;;;;;;;;;;;;42.0062;33.7611;24.6964;52.5303;;
;;;;;;;;;;;;;35.2769;40.6659;42.5956;47.2345;;
;;;;;;;;;;;;;41.3566;44.8779;46.8598;27.2193;;
;;;;;;;;;;;;;40.971;18.4598;31.2401;50.3341;;
;;;;;;;;;;;;;;25.8639;51.1905;11.0051;;
;;;;;;;;;;;;;;30.7615;46.4798;24.8298;;
;;;;;;;;;;;;;;18.8308;40.0661;40.9878;;
;;;;;;;;;;;;;;17.6353;41.4908;38.9035;;
;;;;;;;;;;;;;;41.3962;40.32;23.0905;;
;;;;;;;;;;;;;;39.7993;39.0683;35.1115;;
;;;;;;;;;;;;;;47.3085;7.53187;11.3792;;
;;;;;;;;;;;;;;45.4001;17.1301;19.5056;;
;;;;;;;;;;;;;;40.4522;19.6767;42.441;;
;;;;;;;;;;;;;;39.9071;12.8631;42.3169;;
;;;;;;;;;;;;;;26.0377;28.9658;47.5926;;
;;;;;;;;;;;;;;42.6482;49.8376;19.9573;;
;;;;;;;;;;;;;;36.7428;34.6965;44.5466;;
;;;;;;;;;;;;;;32.5173;48.7803;42.4095;;
;;;;;;;;;;;;;;14.0583;25.1366;43.3905;;
;;;;;;;;;;;;;;35.2981;46.5861;44.1075;;
;;;;;;;;;;;;;;28.0192;41.0934;25.8301;;
;;;;;;;;;;;;;;41.4911;42.1436;41.3193;;
;;;;;;;;;;;;;;38.9172;17.734;41.2037;;
;;;;;;;;;;;;;;25.6337;27.9642;45.2057;;
;;;;;;;;;;;;;;40.475;47.832;26.4024;;
;;;;;;;;;;;;;;46.5623;27.3283;18.2918;;
;;;;;;;;;;;;;;19.1204;39.9798;7.7913;;
;;;;;;;;;;;;;;41.6202;24.006;47.9107;;
;;;;;;;;;;;;;;29.1903;16.7459;38.1324;;
;;;;;;;;;;;;;;36.357;43.1202;47.9738;;
;;;;;;;;;;;;;;9.54097;37.4101;68.194;;
;;;;;;;;;;;;;;21.9016;27.10756;30.5999;;
;;;;;;;;;;;;;;44.9838;27.1814;26.349;;
;;;;;;;;;;;;;;10.5856;43.6111;58.1534;;
;;;;;;;;;;;;;;49.3454;53.361;56.9694;;
;;;;;;;;;;;;;;36.8245;27.3526;30.1296;;
;;;;;;;;;;;;;;40.7996;22.9899;17.9194;;
;;;;;;;;;;;;;;43.1855;41.4004;52.4417;;
;;;;;;;;;;;;;;33.8821;23.9279;35.4426;;
;;;;;;;;;;;;;;21.4833;31.9802;40.6165;;
;;;;;;;;;;;;;;22.6897;43.4987;22.6173;;
;;;;;;;;;;;;;;18.9164;24.8745;19.4779;;
;;;;;;;;;;;;;;44.1644;50.562;34.5256;;
;;;;;;;;;;;;;;19.9994;37.1414;47.4426;;
;;;;;;;;;;;;;;49.5004;40.499;30.422;;
;;;;;;;;;;;;;;9.72775;18.53;30.5294;;
;;;;;;;;;;;;;;24.487;46.5163;8.92786;;
;;;;;;;;;;;;;;8.097;24.9829;20.1732;;
;;;;;;;;;;;;;;43.4811;24.9031;42.4065;;
;;;;;;;;;;;;;;21.8831;43.4273;44.2949;;
;;;;;;;;;;;;;;26.8159;23.1619;36.0783;;
;;;;;;;;;;;;;;23.2447;8.7603;16.8803;;
;;;;;;;;;;;;;;24.7664;33.0016;16.3869;;
;;;;;;;;;;;;;;48.3415;21.4306;92.1463;;
;;;;;;;;;;;;;;;17.5993;38.5666;;
;;;;;;;;;;;;;;;23.8482;32.9872;;
;;;;;;;;;;;;;;;50.9569;19.8339;;
;;;;;;;;;;;;;;;8.17388;48.3426;;
;;;;;;;;;;;;;;;49.2647;24.1265;;
;;;;;;;;;;;;;;;37.6958;51.1824;;
;;;;;;;;;;;;;;;38.9891;28.9649;;
;;;;;;;;;;;;;;;42.3744;44.6933;;
;;;;;;;;;;;;;;;41.3804;30.284;;
;;;;;;;;;;;;;;;18.8913;41.2602;;
;;;;;;;;;;;;;;;45.9446;26.8011;;
;;;;;;;;;;;;;;;43.3771;41.1455;;
;;;;;;;;;;;;;;;21.1258;47.5357;;
;;;;;;;;;;;;;;;25.6686;9.08585;;
;;;;;;;;;;;;;;;35.6233;29.1519;;
;;;;;;;;;;;;;;;48.7587;32.5967;;
;;;;;;;;;;;;;;;30.3913;44.1731;;
;;;;;;;;;;;;;;;41.2514;40.7453;;
;;;;;;;;;;;;;;;47.2948;44.826;;
;;;;;;;;;;;;;;;43.5188;42.5206;;
;;;;;;;;;;;;;;;31.7427;30.189;;
;;;;;;;;;;;;;;;22.4782;35.321;;
;;;;;;;;;;;;;;;17.8833;26.6554;;
;;;;;;;;;;;;;;;19.3723;27.173;;
;;;;;;;;;;;;;;;39.6574;39.804;;
;;;;;;;;;;;;;;;36.8777;39.8409;;
;;;;;;;;;;;;;;;31.0167;47.7817;;
;;;;;;;;;;;;;;;21.5733;20.8552;;
;;;;;;;;;;;;;;;40.7516;42.1907;;
;;;;;;;;;;;;;;;26.1987;40.5413;;
;;;;;;;;;;;;;;;39.2969;37.0789;;
;;;;;;;;;;;;;;;12.4355;30.022;;
;;;;;;;;;;;;;;;43.8201;41.5288;;
;;;;;;;;;;;;;;;8.77823;45.79;;
;;;;;;;;;;;;;;;42.1291;42.2212;;
;;;;;;;;;;;;;;;37.9957;23.3379;;
;;;;;;;;;;;;;;;47.4473;34.7364;;
;;;;;;;;;;;;;;;42.4406;45.2497;;
;;;;;;;;;;;;;;;20.4329;36.6299;;
;;;;;;;;;;;;;;;45.6086;43.2263;;
;;;;;;;;;;;;;;;17.7448;39.5598;;
;;;;;;;;;;;;;;;44.6964;31.0229;;
;;;;;;;;;;;;;;;41.2982;47.0545;;
;;;;;;;;;;;;;;;10.7333;11.0623;;
;;;;;;;;;;;;;;;20.6487;46.4624;;
;;;;;;;;;;;;;;;10.257;21.2361;;
;;;;;;;;;;;;;;;25.5007;60.1384;;
;;;;;;;;;;;;;;;16.874;17.7233;;
;;;;;;;;;;;;;;;31.3769;31.7368;;
;;;;;;;;;;;;;;;36.8866;25.1145;;
;;;;;;;;;;;;;;;28.0887;;;