Folder: Conodont_Crystals/Raman conodonts/Data sets

Note: README.md
# Conodont_Crystals
Using various packages in Mtex for analysing Biomineral crystals

File: Sample spectra all.csv
Prox,Proy,Pany,Excay,Bispy,Tripy,Paly
424.549,5354.1,3832.3,4111.9,2221.8,6757.7,7427.5
431.367,5550.7,4032.3,4315.5,2567.2,6862.8,7493
438.177,5557.5,3907.9,4267.6,2508.7,6803.9,7424.2
444.977,5451.8,4022.5,4286.1,2654,6806.6,7427.6
451.769,5569.5,4050.5,4391.7,2710.6,6826.1,7427.7
458.552,5555.3,4003.2,4317.5,2649.1,6782.3,7360.4
465.327,5572.1,3972,4233.9,2539.4,6775.1,7374.2
472.093,5486.6,3981.4,4267.7,2729.5,6806,7365.6
478.85,5587.7,4143.4,4402.8,2760.7,6793.8,7370.1
485.599,5609.2,4169.4,4406.5,2832.6,6834.8,7350.7
492.339,5548.7,4044.1,4319.7,2714.7,6853.2,7363.7
499.071,5577.9,4098.4,4337.1,2798.3,6827.6,7342.3
505.794,5612,4168.9,4394.1,2798.5,6836.8,7333.3
512.509,5585.8,4178.3,4384.9,2852.1,6775,7331.4
519.215,5740.8,4304.7,4450.7,3024,6853.3,7346.5
525.912,5746.8,4337.9,4543,3079.1,6909,7322
532.601,5814.7,4448,4619.2,3174.5,6873.8,7340.2
539.282,5980.2,4603.2,4789.9,3514.2,6952.9,7332.1
545.954,6029.4,4650.2,4770.3,3660,7006.6,7357.7
552.618,6079.2,4785,4923.5,3753.9,7015,7328
559.274,6123.1,4820.8,4954.7,3850.5,7001.7,7363.2
565.921,6076.6,4874.1,4957.8,3874.7,7032.7,7339.8
572.56,6114.9,4898.5,4959.5,4005.3,7073.2,7388.6
579.19,6305.2,5067.8,5068,4195.6,7096.6,7391
585.813,6135.4,4941.6,4973.5,4090.4,7079.1,7368.2
592.426,6098.6,5001.2,5056.8,4127,7166,7453.7
599.032,6066.5,4906.4,4994.4,4119.4,7079.8,7381.9
605.63,6107.9,5050.1,5063.4,4291.4,7074.6,7405.8
612.219,6161.8,5046.5,5129.5,4214.4,7074.8,7387.4
618.8,6163.6,5107.4,5097.9,4373,7044.4,7373.1
625.373,6219,5173.5,5295.5,4607,7151.6,7374.5
631.937,6247.8,5310.7,5297.4,4669.4,7126,7387.9
638.494,6388.6,5422.9,5427.5,4767.5,7159.7,7392.2
645.042,6403.1,5486.3,5418.9,4797.4,7178.2,7393.4
651.582,6472.6,5550.8,5517.8,5044,7254.4,7405.4
658.115,6498.2,5651,5470.7,5015.9,7219.5,7410.6
664.639,6375.9,5553,5456.8,5091,7209.2,7395
671.155,6334.1,5583.6,5522.3,5047.2,7179.1,7404.4
677.663,6238.6,5505.5,5409.8,4900.4,7147.5,7428.6
684.163,6274.7,5548.7,5444.7,4781.6,7178.4,7403
690.655,6294.3,5440.7,5422,4820.7,7174.7,7388.6
697.139,6228.7,5502,5502.9,4939.6,7173.9,7408.4
703.615,6280.6,5611.6,5573.2,5042.9,7187.5,7398.9
710.083,6289.9,5589.6,5626.2,5128.8,7194.2,7411.7
716.543,6378.8,5754.9,5611.5,5125.9,7234.8,7408.6
722.996,6522.2,5722.4,5812.5,5342.8,7217.4,7407.3
729.44,6595.4,5977.1,5900.2,5405.8,7313.2,7409.3
735.877,6646.8,6065.8,5979.1,5726.9,7297.4,7418.7
742.306,6704.4,6050.4,6014.2,5583,7324,7439.6
748.726,6758,6106.3,6081.8,5695.7,7341.6,7430.1
755.14,6741.7,6155.4,6136.2,5820.2,7314.9,7428.1
761.545,6776,6130.1,6106.2,5881.5,7325.5,7406.8
767.942,6684,6161,6182.5,5859.7,7322.2,7397.5
774.332,6799.4,6248.8,6178.6,5981.8,7353.9,7403
780.714,6782.5,6245.5,6150.2,5736.7,7327,7397.8
787.089,6709.8,6189.8,6140.6,5841.6,7279.4,7401.6
793.455,6669.1,6284,6189.5,5874,7334,7382
799.814,6758.3,6283.3,6198.8,5889.2,7353.5,7373.3
806.166,6611.2,6177.5,6178.4,5816.6,7304.3,7360.6
812.509,6770.1,6300.7,6224.5,5957.7,7289.8,7367.1
818.845,6755,6282.3,6194.6,6011.1,7366.9,7369.8
825.174,6831.7,6314.3,6348.3,6014.8,7325.5,7364.5
831.495,6808.9,6409,6326.8,6202.5,7305.3,7382
837.808,6813.3,6378.8,6364,6130.1,7354.9,7364.1
844.114,6863.5,6486.7,6299,6194.7,7358.7,7385.8
850.412,6860.2,6479.2,6422.8,6259.6,7401.4,7381.6
856.703,6973.2,6520.1,6504,6329.5,7392.2,7367.5
862.986,7042.1,6733.1,6581.9,6493.4,7369.6,7382
869.261,6964.2,6697.8,6622.2,6505.5,7452.4,7382.4
875.53,7069.2,6804.3,6605.3,6614.2,7447,7400.2
881.79,7132.1,6768.8,6604.6,6508.5,7409.3,7384.7
888.044,7098.5,6859.5,6544,6553.4,7423.1,7389.3
894.29,7113.6,6829.1,6597,6682,7471.9,7391.5
900.528,7180.7,6847.8,6621.4,6703.9,7404.1,7400.7
906.759,7296.8,6952.5,6704.8,6781.4,7401.8,7374.6
912.983,7229.1,7014.8,6712.3,6754.7,7450.7,7398.6
919.199,7246.6,7013.7,6698.3,6797.6,7519.9,7375.8
925.409,7254.6,6929.4,6641.8,6811.4,7429.1,7404.5
931.61,7263.9,7129.5,6730.7,6929.7,7438.4,7410.6
937.805,7383,7117.1,6786.2,7097.3,7477.2,7421.9
943.992,7363,7234.8,6789.9,7095.5,7497.2,7443.2
950.172,7539.3,7497.3,6929.9,7385.7,7627.8,7495.3
956.345,7889.1,7889.5,7159.6,7896.6,7808.8,7573.7
962.51,9798.3,9994.3,8017.6,11067.3,9161.3,8657.1
968.669,8289.3,8283.8,7416.6,8428.1,8125.6,7709.1
974.82,7896.4,7914.3,7201.1,7947.3,7767.4,7525.8
980.964,7750.4,7678.6,7158.8,7732.4,7637.6,7491.8
987.101,7896.3,7882.7,7266.1,7832.8,7705.9,7515
993.23,7954.5,7913.2,7289,8009.6,7710.8,7525.9
999.353,7963.9,7989,7458.9,8077.8,7778.1,7551.6
1005.47,8045.6,8141.9,7371.6,8246.3,7806.2,7537.2
1011.58,8068.9,8115.5,7525,8257.3,7826.8,7542.6
1017.68,8072.9,8172.2,7495.7,8220.3,7919.8,7556.2
1023.77,8128.5,8184.6,7572.8,8253.4,7876.9,7571.5
1029.86,8170.6,8176.8,7552.1,8233.6,7866,7608.1
1035.94,8254.7,8256.1,7544.4,8338.8,7936.8,7637.3
1042.01,8307.9,8406.1,7638.4,8589.9,7981,7633.6
1048.08,8386.5,8435.9,7617.2,8603.8,8044.6,7699.7
1054.14,8452.7,8616.8,7740.3,8692,8101.5,7776.4
1060.19,8597.5,8704,7884.7,8893.6,8117.2,7706.7
1066.24,8603.2,8657.3,7924.8,8924.9,8097.3,7683.1
1072.27,8621.6,8659.1,7891,8956.2,8019.7,7698.1
1078.31,8689.6,8780,7991.6,9109.4,8125.9,7781.4
1084.33,8674.8,8890.6,8075,9231.9,8119.1,7722.4
1090.35,8780.9,8936.5,8092.1,9181.1,8122.2,7720.7
1096.36,9045.7,9099,8151.1,9468.3,8180.8,7763.3
1102.36,9160.4,9255.8,8340.8,9709.8,8247.4,7764.5
1108.36,9099.1,9275.9,8411.8,9710.4,8296.5,7795.2
1114.35,9197.3,9326,8501.2,9711.1,8333.1,7814.4
1120.33,9257.9,9282.3,8409.2,9683.2,8261,7831.6
1126.31,9291.5,9441.2,8545.2,9940.5,8295.4,7848.9
1132.28,9408.5,9476.1,8548.2,9865.1,8292.3,7876.9
1138.24,9325.4,9425.4,8477.1,9925.7,8357,7866.9
1144.2,9460.9,9636.7,8638,9997.2,8312,7952.9
1150.15,9471.2,9639.3,8627.6,10024.5,8366.5,7946
1156.09,9678.9,9698,8658.4,10120.1,8379.6,7957.9
1162.03,9754.8,9618.2,8677.4,10197.9,8405.3,8001.5
1167.96,9835.3,9786.6,8740,10220,8375.2,8036.5
1173.88,10004.6,9986.7,8842.2,10408.7,8461.9,8072.9
1179.8,10098.8,9985.8,8944.2,10524.8,8500.8,8071.9
1185.71,10359.7,10229.8,9015.6,10788.1,8626,8116
1191.61,10485.6,10359.3,9085.8,10934.2,8660.9,8146.2
1197.51,10731.1,10492.6,9331.8,11308.7,8689.9,8202.4
1203.4,10971.4,10631.8,9473.7,11580.1,8830.7,8231.3
1209.28,11160.7,10878.7,9629.6,11692.7,8950.1,8246.8
1215.16,11273,10970.2,9699.3,12024.2,8899.6,8289.9
1221.03,11502.4,11024.4,9678.9,11934.6,8983.5,8383.7
1226.89,11647.4,11185.5,9819.3,12020.7,8952.5,8401.7
1232.75,11782.8,11059.5,9866.3,12096.1,8934.7,8429.3
1238.6,11937.9,11175.2,9871.9,12132.5,8983.5,8461.9
1244.45,11970.8,11134.4,9944.9,12131.2,9012.8,8463.9
1250.28,12035.9,11312.4,9915.7,12221.6,9013.7,8511
1256.12,12251.2,11203.1,10032.2,12184.1,9005.8,8527.6
1261.94,12481.6,11287.2,10071.7,12530,9115.7,8616.6
1267.76,12762.1,11491.4,10178.2,12624.8,9151.4,8648.5
1273.57,12995.6,11697.8,10344.6,12836.2,9132.5,8708.4
1279.38,13158,11706.6,10595.8,13051.3,9262.5,8736.9
1285.18,13306.1,11837.8,10464.4,13193.2,9288.7,8752.1
1290.97,13523.8,12095.3,10701.4,13473.8,9418.2,8812.8
1296.76,13741.9,12202.5,10873.1,13788.2,9486.3,8894.3
1302.54,13924.1,12265.3,10850.3,13783.8,9549.4,8951.2
1308.31,14222.8,12487.5,10988.8,14163,9531.9,9029.6
1314.08,14388.6,12567.5,11114.8,14182.9,9556.4,9088.7
1319.84,14601.3,12737.7,11193.8,14450.8,9641.7,9168.6
1325.6,14704.1,12819.1,11171.9,14491.9,9688.2,9193.8
1331.35,14727.2,12705,11225,14438.2,9692.6,9189
1337.09,14892.2,12673.2,11150.5,14306.3,9669.2,9245.4
1342.83,15000,12690.2,11142.8,14447.3,9679.6,9209.1
1348.56,14869.4,12801.6,11145.4,14317.8,9589.4,9243.9
1354.28,14816.8,12694.8,11182.9,14350.9,9661,9195
1360,14813.7,12822.4,11296.5,14470.5,9681.6,9205.8
1365.71,14801.9,12803.6,11258.6,14605.6,9662.7,9164.5
1371.42,14750,12827.4,11185.4,14434.6,9655.4,9153.1
1377.12,14741,13102.4,11377.1,14738.3,9694.4,9121
1382.81,14585.4,13085,11407.9,14679.9,9695.5,9168.3
1388.5,14525.5,13172.6,11523.6,14856.2,9656.7,9102.8
1394.18,14459.8,13263.3,11560.9,15000,9690.8,9079.1
1399.86,14528.4,13482.7,11759.9,15178.1,9817.7,9097.7
1405.52,14524.9,13635.2,11831.4,15251.7,9803.5,9069.1
1411.19,14517.1,13823.9,12008,15554.4,9887.5,9075
1416.85,14552.1,14046.8,12176.3,15790.2,9946.8,9063.4
1422.5,14484.3,14134.4,12170.2,15942.3,9927.1,9068.4
1428.14,14558,14158,12243.9,15946.3,9973.6,9051.1
1433.78,14621.2,14255.7,12288.6,16111.6,9960.8,9070.7
1439.41,14514.4,14396.2,12395.7,16310.8,9985.1,9038.9
1445.04,14575.5,14260.6,12440.2,16263.1,10037.4,9066.8
1450.66,14550.3,14352.7,12486.2,16169.4,10046.8,9012
1456.28,14448.8,14413.9,12433,16199.1,10058.6,9021.6
1461.89,14426.8,14524.9,12606.6,16220.2,9992.9,9051.3
1467.49,14516.9,14412.7,12624.5,16336.3,9971.8,9059.2
1473.09,14394.6,14483.4,12540.3,16339.8,10027.7,9062.1
1478.68,14431,14398.9,12598.3,16384.2,10056,9035.3
1484.27,14500.6,14470.8,12697.3,16429.7,10042.3,9076.6
1489.85,14397.4,14559.3,12683.8,16455.4,10020.6,9090.6
1495.42,14455.2,14614.7,12721,16615.5,10000.7,9108.1
1500.99,13436.2,13565.6,11815.8,15212.3,9724.2,8973.3
1506.55,14566.5,14796.3,12886.6,16792,10100.9,9094.7
1512.11,14808.5,14925.6,12997.3,17035.9,10183.8,9156.9
1515.81,14760.7,14938.9,13100,17127,10089.5,9196.2